Age (kyr BP)	frequency-dependence susceptibility/Hematite
0.015	1.269
0.030	1.812
0.044	1.544
0.059	2.030
0.073	2.922
0.088	3.168
0.103	1.327
0.117	1.846
0.132	2.474
0.147	1.977
0.162	2.733
0.177	1.749
0.193	2.294
0.208	1.637
0.223	2.037
0.238	1.518
0.254	1.798
0.269	2.611
0.284	2.654
0.299	1.792
0.315	2.470
0.330	2.647
0.345	1.789
0.360	1.928
0.376	1.385
0.391	0.549
0.407	1.040
0.424	1.072
0.440	0.933
0.457	0.810
0.473	0.564
0.490	0.814
0.506	1.048
0.523	1.929
0.539	0.739
0.554	0.816
0.569	2.248
0.585	2.689
0.600	2.456
0.615	4.665
0.630	NaN
0.646	NaN
0.664	NaN
0.705	0.687
0.746	NaN
0.788	NaN
0.829	NaN
0.870	NaN
0.912	NaN
0.953	NaN
0.994	NaN
1.050	NaN
1.113	NaN
1.175	NaN
1.237	NaN
1.299	NaN
1.361	NaN
1.424	NaN
1.486	NaN
1.548	NaN
1.610	NaN
1.673	NaN
1.735	NaN
1.798	NaN
1.860	NaN
1.922	NaN
1.985	6.769
2.047	NaN
2.149	NaN
2.255	NaN
2.362	NaN
2.467	NaN
2.573	NaN
2.678	3.793
2.783	1.620
2.888	NaN
2.988	NaN
3.081	4.310
3.174	5.967
3.266	NaN
3.359	NaN
3.451	NaN
3.544	NaN
3.636	NaN
3.729	NaN
3.800	NaN
3.867	NaN
3.935	5.219
4.003	6.267
4.070	7.507
4.138	NaN
4.205	2.898
4.273	7.511
4.339	NaN
4.401	NaN
4.463	NaN
4.526	NaN
4.588	NaN
4.650	NaN
4.712	NaN
4.774	NaN
4.837	NaN
4.906	NaN
4.977	NaN
5.048	4.951
5.119	6.525
5.190	3.231
5.261	3.913
5.332	5.634
5.403	3.916
5.474	3.509
5.544	7.244
5.615	5.239
5.685	7.045
5.755	9.052
5.826	4.425
5.896	NaN
5.967	6.783
6.037	6.829
6.100	8.346
6.160	4.201
6.219	4.252
6.279	6.429
6.339	2.918
6.399	3.755
6.458	3.329
6.518	3.653
6.579	4.305
6.645	2.137
6.710	4.385
6.776	4.175
6.842	2.461
6.907	2.291
6.973	1.948
7.038	2.578
7.104	3.334
7.168	3.269
7.232	2.492
7.296	4.064
7.360	2.595
7.424	1.962
7.488	2.180
7.552	3.563
7.616	4.841
7.673	3.027
7.734	5.053
7.794	4.293
7.855	3.687
7.916	3.232
7.977	5.269
8.038	2.439
8.099	3.118
8.160	3.253
8.221	1.869
8.280	2.614
8.338	1.218
8.395	1.375
8.453	0.746
8.510	1.662
8.568	0.606
8.625	1.279
8.682	0.876
8.740	1.227
8.797	0.763
8.876	1.578
8.956	3.932
9.035	2.005
9.115	0.903
9.194	0.602
9.273	1.287
9.353	1.153
9.432	0.344
9.512	0.813
9.580	0.508
9.636	0.801
9.692	2.231
9.748	0.941
9.804	0.596
9.860	0.857
9.916	1.255
9.972	1.143
10.028	1.372
10.084	1.548
10.142	6.039
10.200	1.273
10.258	2.073
10.316	3.493
10.375	3.355
10.433	1.593
10.491	2.394
10.549	3.909
10.607	2.030
10.759	2.078
10.844	3.762
10.930	1.826
11.016	1.054
11.101	1.305
11.187	2.250
11.273	1.303
11.358	1.350
11.444	1.993
11.538	1.703
11.636	1.001
11.734	5.011
11.832	1.674
11.930	1.041
12.028	2.248
12.126	1.369
12.224	4.234
12.322	1.604
12.422	1.742
12.536	1.919
12.651	3.457
12.765	3.500
12.880	2.866
12.995	2.522
13.109	2.550
13.224	2.368
13.339	2.530
13.453	1.299
13.550	1.990
13.629	1.536
13.707	1.727
13.786	1.818
13.864	0.968
13.943	1.031
14.021	1.240
14.099	1.268
14.178	1.182
14.256	0.779
14.351	0.762
14.448	0.770
14.544	1.781
14.641	1.258
14.738	1.594
14.834	1.073
14.931	0.894
15.028	2.317
15.125	0.539
15.234	0.358
15.376	6.564
15.517	0.635
15.659	0.413
15.801	1.396
15.943	1.087
16.086	0.705
16.230	0.564
16.374	0.496
16.517	0.154
16.621	0.474
16.712	0.407
16.802	0.188
16.892	0.640
16.983	0.546
17.073	0.296
17.163	0.327
17.254	0.585
17.344	0.352
17.436	0.674
17.532	0.180
17.627	0.758
17.723	0.469
17.819	0.318
17.915	1.201
18.011	1.122
18.107	1.696
18.202	1.053
18.298	0.469
18.408	0.967
18.522	0.985
18.636	1.168
18.749	0.847
18.863	1.453
18.976	0.809
19.090	0.618
19.203	0.991
19.317	0.580
19.414	0.412
19.481	0.887
19.547	0.896
19.613	1.067
19.679	1.839
19.746	1.254
19.812	1.616
19.878	0.989
19.944	1.975
20.011	1.648
20.065	2.051
20.117	1.545
20.169	3.027
20.221	4.678
20.273	1.710
20.325	1.461
20.429	1.534
20.481	1.702
20.533	2.290
20.584	1.857
20.636	1.349
20.688	1.856
20.739	1.325
20.791	1.757
20.843	1.251
20.894	1.266
20.946	1.940
20.997	1.268
21.054	1.501
21.111	1.290
21.168	0.843
21.224	0.850
21.281	1.316
21.338	2.709
21.395	2.666
21.451	2.934
21.508	1.886
21.566	2.795
21.628	1.635
21.690	1.025
21.752	1.117
21.814	1.375
21.877	1.373
21.939	2.724
22.001	2.652
22.063	1.832
22.124	1.373
22.182	1.310
22.241	1.324
22.300	0.857
22.359	1.876
22.418	1.526
22.477	1.856
22.536	1.620
22.594	1.274
22.654	1.470
22.715	1.205
22.775	1.689
22.836	1.909
22.897	1.279
22.958	1.989
23.018	1.333
23.079	1.797
23.140	1.045
23.216	0.991
23.308	0.717
23.399	1.009
23.490	1.407
23.582	1.471
23.673	1.720
23.765	1.404
23.856	1.472
23.948	1.051
24.045	0.882
24.147	0.898
24.248	0.880
24.350	1.209
24.452	0.973
24.554	1.091
24.656	0.809
24.758	1.304
24.860	1.067
24.956	0.646
25.048	0.640
25.140	0.552
25.232	1.035
25.324	0.404
25.417	0.335
25.509	0.359
25.601	0.814
25.693	0.238
25.781	0.590
25.866	0.421
25.951	0.237
26.036	0.303
26.133	0.506
26.230	0.485
26.327	0.395
26.424	0.295
26.519	0.355
26.607	0.400
26.695	0.689
26.783	0.688
26.871	0.487
26.959	0.270
27.047	0.198
27.135	0.461
27.221	0.231
27.305	0.508
27.389	0.360
27.473	0.357
27.557	0.570
27.641	0.592
27.724	0.594
27.808	0.593
27.892	0.499
27.977	0.429
28.061	0.432
28.145	0.336
28.230	0.444
28.314	0.516
28.398	0.547
28.482	0.669
28.567	0.986
28.651	0.592
28.735	0.214
28.819	0.177
28.903	0.145
28.988	0.338
29.072	0.469
29.156	0.151
29.238	0.171
29.319	0.184
29.400	0.434
29.481	0.282
29.562	0.210
29.643	0.309
29.724	0.119
29.805	0.306
29.885	0.150
29.965	0.284
30.045	0.170
30.124	0.184
30.204	NaN
30.284	0.125
30.364	0.201
30.444	0.282
30.531	0.186
30.618	0.197
30.705	0.361
30.793	0.299
30.880	0.535
30.967	0.428
31.054	0.326
31.133	0.807
31.227	0.813
31.321	0.420
31.415	0.219
31.509	0.189
31.603	0.193
31.697	0.180
31.791	0.124
31.885	0.443
31.978	0.219
32.068	0.144
32.158	0.167
32.248	0.396
32.338	0.172
32.428	0.352
32.518	0.529
32.608	0.585
32.698	0.493
32.787	0.378
32.874	0.316
32.961	0.605
33.048	0.958
33.135	0.622
33.222	0.946
33.309	1.137
33.396	1.064
33.483	0.826
33.554	0.927
33.608	1.089
33.663	1.015
33.717	1.081
33.771	1.128
33.826	0.504
33.880	0.500
33.935	0.351
33.989	0.349
34.043	0.430
34.096	0.377
34.148	0.636
34.201	0.798
34.254	2.049
34.307	1.148
34.360	1.798
34.413	0.964
34.466	0.976
34.521	0.612
34.576	0.538
34.632	0.386
34.687	0.493
34.742	0.377
34.798	0.432
34.853	0.545
34.909	0.576
34.964	0.654
35.036	0.722
35.110	0.554
35.184	0.544
35.259	0.583
35.333	0.571
35.408	0.520
35.482	0.179
35.556	0.362
35.631	0.177
35.707	0.185
35.783	0.128
35.859	0.171
35.934	0.484
36.010	0.361
36.086	0.609
36.162	0.926
36.238	0.693
36.309	1.057
36.389	0.258
36.469	0.830
36.548	0.885
36.628	0.468
36.708	0.297
36.788	0.215
36.868	0.187
36.947	0.226
37.027	0.346
37.112	0.349
37.203	0.185
37.294	0.182
37.385	0.205
37.475	0.260
37.566	0.258
37.657	0.410
37.748	0.480
37.839	0.408
37.930	0.435
38.021	0.521
38.113	0.726
38.205	0.801
38.296	1.585
38.388	1.458
38.480	2.072
38.571	1.042
38.663	0.812
38.755	1.019
38.847	1.819
38.941	1.441
39.035	1.321
39.129	1.650
39.223	1.615
39.317	1.247
39.411	1.089
39.505	0.978
39.599	1.192
39.693	0.995
39.785	1.821
39.876	1.084
39.967	0.967
40.058	1.460
40.149	1.181
40.240	NaN
40.331	0.140
40.422	0.579
40.513	1.198
40.603	0.964
40.674	0.812
40.744	0.230
40.815	0.271
40.885	0.637
40.956	0.321
41.026	0.283
41.097	0.680
41.167	0.370
41.238	0.419
41.307	0.534
41.376	1.548
41.445	0.406
41.514	0.249
41.652	0.357
41.721	0.849
41.859	1.787
41.928	1.337
41.996	1.039
42.064	0.375
42.131	0.426
42.199	0.221
42.269	0.581
42.340	0.700
42.410	0.789
42.480	0.263
42.551	0.531
42.622	0.106
42.694	0.279
42.766	0.177
42.838	0.277
42.910	0.745
42.982	0.601
43.054	0.765
43.126	1.218
43.198	0.978
43.270	0.994
43.342	1.052
43.414	1.060
43.486	0.920
43.558	1.083
43.630	0.951
43.702	1.084
43.774	0.875
43.846	1.256
43.918	1.136
43.992	1.009
44.066	0.848
44.140	1.107
44.213	0.917
44.287	0.983
44.361	0.835
44.435	0.951
44.509	0.580
44.582	0.702
44.653	0.811
44.722	1.116
44.792	0.709
44.862	0.710
44.932	0.731
45.002	0.606
45.072	0.732
45.142	0.733
45.211	0.641
45.278	0.703
45.343	0.792
45.407	0.740
45.472	0.799
45.537	0.641
45.602	0.650
45.666	0.577
45.731	0.653
45.796	0.935
45.861	0.921
45.927	1.342
45.993	1.179
46.058	0.872
46.124	1.006
46.190	0.777
46.256	0.845
46.322	0.741
46.387	0.769
46.453	1.037
46.517	0.853
46.581	0.883
46.646	0.865
46.710	1.408
46.774	1.341
46.839	1.658
46.903	1.749
46.967	1.209
47.036	1.138
47.106	0.871
47.177	0.677
47.247	0.705
47.318	0.830
47.388	1.329
47.459	1.138
47.529	1.418
47.600	1.204
47.671	1.223
47.741	1.160
47.811	0.971
47.882	1.063
47.952	1.051
48.023	0.969
48.093	0.975
48.164	1.005
48.234	1.068
48.304	1.021
48.374	0.990
48.444	1.468
48.513	1.626
48.583	1.211
48.652	1.207
48.722	0.813
48.792	0.939
48.861	1.023
48.927	0.877
48.993	0.989
49.060	0.910
49.126	1.044
49.192	0.838
49.258	0.750
49.324	1.107
49.391	1.042
49.457	0.952
49.523	1.176
49.590	0.922
49.656	0.820
49.723	0.960
49.789	0.858
49.856	0.761
49.922	0.896
49.989	0.971
50.056	1.134
50.124	0.845
50.192	0.820
50.259	0.746
50.327	0.672
50.395	0.735
50.462	0.668
50.530	0.607
50.598	0.679
50.664	0.714
50.731	0.820
50.797	0.738
50.863	0.658
50.930	0.603
50.996	0.600
51.063	0.545
51.129	0.643
51.196	1.670
51.263	1.441
51.331	1.224
51.398	1.262
51.459	0.735
51.521	0.809
51.582	0.729
51.644	0.513
51.705	0.498
51.767	0.517
51.828	0.516
51.890	0.472
51.952	0.445
52.014	0.557
52.075	0.720
52.137	0.743
52.199	0.986
52.261	0.837
52.322	0.881
52.384	0.982
52.445	1.095
52.506	1.022
52.568	0.961
52.629	0.912
52.690	1.001
52.752	0.756
52.813	0.912
52.874	1.000
52.936	0.447
52.998	0.838
53.061	0.993
53.123	0.931
53.185	1.086
53.247	0.866
53.310	0.934
53.372	0.789
53.434	0.541
53.497	0.626
53.559	0.990
53.621	0.884
53.683	0.726
53.745	0.707
53.807	0.569
53.869	0.493
53.931	0.535
53.993	0.646
54.055	0.569
54.116	0.487
54.177	0.513
54.238	0.481
54.299	0.475
54.360	0.496
54.421	0.520
54.482	0.456
54.543	0.437
54.604	0.417
54.665	0.412
54.739	0.535
54.814	0.458
54.889	0.569
54.964	0.483
55.039	0.471
55.113	0.500
55.188	0.490
55.263	0.433
55.338	0.520
55.417	0.660
55.501	0.519
55.585	0.382
55.669	0.463
55.753	0.379
55.837	0.555
55.920	0.744
56.004	0.944
56.093	0.807
56.180	0.520
56.268	0.374
56.356	0.466
56.444	0.376
56.532	0.460
56.620	0.435
56.708	0.357
56.796	0.420
56.884	0.447
56.972	0.392
57.063	0.547
57.154	0.400
57.246	0.524
57.337	0.774
57.429	0.701
57.520	0.824
57.612	0.596
57.703	0.819
57.794	0.710
57.885	0.959
57.976	0.849
58.066	0.821
58.157	0.825
58.247	0.951
58.338	0.714
58.428	0.714
58.519	0.675
58.609	0.650
58.701	0.717
58.792	0.626
58.883	0.679
58.975	0.425
59.066	0.491
59.157	0.583
59.249	0.620
59.340	0.590
59.432	0.511
59.522	0.406
59.613	0.508
59.704	0.356
59.795	0.360
59.886	0.249
59.977	0.499
60.067	0.359
60.158	0.353
60.249	0.475
60.339	0.449
60.428	0.524
60.518	0.370
60.607	0.274
60.697	0.230
60.786	0.261
60.875	0.266
60.965	0.257
61.054	0.328
61.144	0.321
61.234	0.453
61.323	0.433
61.413	0.504
61.503	0.444
61.593	0.436
61.682	0.429
61.772	0.455
61.862	0.269
61.951	0.893
62.041	1.124
62.131	0.841
62.221	0.809
62.314	0.794
62.408	0.741
62.502	0.621
62.596	0.653
62.690	0.777
62.783	0.706
62.876	0.564
62.969	0.858
63.063	0.989
63.156	0.884
63.249	1.025
63.342	0.850
63.436	0.964
63.529	0.726
63.626	0.873
63.722	0.752
63.819	0.748
63.915	1.010
64.012	0.997
64.108	0.755
64.205	0.722
64.301	0.934
64.396	0.963
64.490	1.035
64.584	0.765
64.677	0.858
64.771	0.503
64.865	0.938
64.958	0.939
65.052	0.723
65.146	1.146
65.247	0.868
65.351	0.782
65.455	1.221
65.559	1.221
65.663	0.974
65.766	1.012
65.870	0.671
65.974	0.919
66.080	0.882
66.203	0.860
66.326	0.621
66.448	0.815
66.571	0.965
66.694	1.006
66.816	1.137
66.939	1.079
67.062	1.083
67.182	0.430
67.300	1.073
67.418	1.112
67.536	1.028
67.654	1.081
67.773	0.848
67.891	1.189
68.009	1.135
68.127	1.532
68.247	1.140
68.368	1.552
68.488	0.983
68.609	0.994
68.729	0.846
68.850	0.925
68.971	1.032
69.091	0.915
69.226	1.163
69.362	1.355
69.499	1.159
69.635	1.011
69.772	0.980
69.908	0.966
70.045	1.048
70.182	0.767
70.314	0.893
70.442	1.432
70.569	1.355
70.696	2.423
70.824	1.562
70.951	1.711
71.078	2.304
71.206	1.632
71.332	1.601
71.457	1.606
71.582	1.742
71.708	1.419
71.833	2.042
71.959	1.971
72.084	1.644
72.209	1.569
72.339	0.793
72.469	1.252
72.599	1.114
72.730	1.058
72.860	1.702
72.990	1.768
73.121	1.262
73.251	0.944
73.378	1.160
73.505	1.332
73.632	0.721
73.760	1.001
73.887	1.465
74.014	1.292
74.141	0.799
74.268	1.398
74.396	0.914
74.524	1.280
74.652	1.325
74.780	1.335
74.908	1.534
75.036	1.253
75.163	1.264
75.290	1.102
75.412	1.341
75.535	1.209
75.658	1.189
75.781	0.830
75.904	1.004
76.027	0.757
76.150	0.685
76.275	0.809
76.403	0.764
76.569	1.026
76.735	0.778
76.901	0.904
77.067	0.795
77.233	0.811
77.395	0.794
77.557	0.567
77.719	0.671
77.881	0.630
78.043	0.631
78.206	0.455
78.371	0.489
78.537	0.644
78.703	0.740
78.868	0.932
79.034	0.894
79.199	1.303
79.364	1.396
79.529	1.149
79.694	1.097
79.859	0.674
80.024	1.181
80.190	0.615
80.357	0.789
80.524	0.877
80.692	0.688
80.859	0.855
81.026	0.841
81.194	0.879
81.363	1.014
81.531	1.714
81.700	1.035
81.869	1.521
82.037	0.893
82.204	0.713
82.365	0.771
82.527	0.864
82.688	1.484
82.849	0.482
83.010	0.597
83.175	0.885
83.348	0.348
83.522	0.476
83.695	0.490
83.828	1.035
83.961	0.868
84.094	0.870
84.224	0.739
84.351	0.472
84.479	0.640
84.607	0.961
84.734	0.216
84.862	0.487
84.989	0.806
85.117	0.879
85.242	0.764
85.367	0.529
85.492	0.865
85.616	0.473
85.741	0.586
85.865	0.636
85.990	0.743
86.114	0.602
86.243	0.518
86.373	0.618
86.503	0.651
86.632	0.900
86.762	0.819
86.892	1.115
87.022	2.362
87.151	2.442
87.284	0.832
87.417	0.416
87.550	0.272
87.682	0.221
87.815	0.225
87.948	2.831
88.081	1.813
88.213	1.069
88.342	0.402
88.472	0.254
88.602	0.358
88.732	0.377
88.861	0.499
89.093	0.654
89.194	0.478
89.296	0.499
89.399	0.268
89.501	NaN
89.603	0.316
89.706	0.103
89.808	NaN
90.013	0.299
90.115	0.376
90.217	0.248
90.319	NaN
90.421	NaN
90.523	NaN
90.625	NaN
90.727	0.461
